ax,ay,az,omega_x,omega_y,omega_z
0.21296,0.25065,9.6422,0.0003,-0.0049,-0.003
0.22044,0.26411,9.6452,-0.0022,-0.0024,-0.0057
0.19741,0.26082,9.6338,-0.0019,-0.0036,-0.0044
0.20728,0.25454,9.6494,0.0008,-0.0028,-0.0049
0.20937,0.23838,9.6368,0.0003,-0.0035,-0.0038
0.22762,0.24437,9.6476,-0.0013,-0.004,-0.004
0.22074,0.25095,9.638,0.0006,-0.005,-0.0041
0.21505,0.25723,9.632,-0,-0.0045,-0.0057
0.19531,0.27846,9.6203,-0.0006,-0.0037,-0.0047
0.19352,0.24796,9.6461,0.0005,-0.0076,-0.004
0.22642,0.26471,9.6323,0.0008,-0.0041,-0.0048
0.21176,0.25813,9.6419,0.0019,-0.0043,-0.0008
0.22253,0.26022,9.6529,-0.0003,-0.0034,-0.0032
0.20578,0.24347,9.6344,-0.001,-0.0047,-0.0052
0.19831,0.2674,9.6425,-0.0024,-0.0039,-0.0035
0.22552,0.25065,9.6242,-0.0023,-0.0027,-0.0056
0.22971,0.23689,9.6503,0.0003,-0.002,-0.0041
0.2016,0.26411,9.6583,0.0014,-0.0032,-0.0041
0.2013,0.27069,9.6425,-0.0015,-0.004,-0.0042
0.21685,0.27278,9.6515,-0.0016,-0.0039,-0.0055
0.2004,0.25633,9.6257,-0.0007,-0.0044,-0.0032
0.22223,0.25753,9.6604,-0.0009,-0.0041,-0.0044
0.19172,0.26321,9.6314,0.0016,-0.0037,-0.0026
0.20668,0.2659,9.644,-0.0001,-0.0036,-0.0067
0.21535,0.26381,9.6326,0.0009,-0.0032,-0.004
0.21476,0.24227,9.6305,-0.0004,-0.0024,-0.0054
0.22283,0.25484,9.6293,-0.0029,-0.0035,-0.0032
0.23599,0.25663,9.6314,-0.0005,-0.0038,-0.0052
0.22014,0.24945,9.6574,0.001,-0.0029,-0.0036
0.2001,0.27488,9.6084,0.0025,-0.0025,-0.004
0.19292,0.25902,9.6449,0.0007,-0.0037,-0.004
0.22881,0.24048,9.6197,-0.0016,-0.0037,-0.0042
0.21446,0.25842,9.641,0,-0.0031,-0.0042
0.22822,0.25543,9.6293,-0.0016,-0.0032,-0.007
0.18933,0.22403,9.6571,-0.003,-0.0025,-0.0068
0.22283,0.23988,9.6317,0.0004,-0.0039,-0.0038
0.21356,0.24885,9.6317,-0.0006,-0.0045,-0.0055
0.22403,0.25155,9.6535,-0.0009,-0.0025,-0.0044
0.22134,0.25783,9.6105,-0.0011,-0.0047,-0.0045
0.20907,0.25543,9.6326,-0.0004,-0.0037,-0.0031
0.22343,0.25633,9.6251,-0.0003,-0.0044,-0.0026
0.21476,0.25304,9.6464,-0.0006,-0.002,-0.0055
0.21745,0.24407,9.6637,-0.0006,-0.0037,-0.0037
0.201,0.2671,9.682,-0.0014,-0.0044,-0.0023
0.2007,0.26201,9.6147,-0.0013,-0.0038,-0.004
0.20997,0.2339,9.6664,-0.0011,-0.0064,-0.0047
0.20758,0.26231,9.6251,0.0002,-0.0052,-0.0061
0.21505,0.25962,9.6377,-0.0002,-0.0029,-0.0055
0.22792,0.23898,9.6347,0.0003,-0.0028,-0.0041
0.22463,0.26979,9.6535,-0.0006,-0.0056,-0.0033
0.21864,0.26022,9.6341,-0.0017,-0.003,-0.0052
0.19442,0.23779,9.632,-0.0021,-0.003,-0.0055
0.21894,0.24945,9.6374,-0.0007,-0.0062,-0.0053
0.21266,0.2348,9.6446,-0.001,-0.0037,-0.004
0.20788,0.27876,9.6263,0.001,-0.0051,-0.0031
0.21147,0.25603,9.6377,0.0012,-0.0021,-0.0046
0.21057,0.27188,9.6191,-0.0003,-0.0052,-0.005
0.21176,0.27846,9.6407,-0.0012,-0.004,-0.0029
0.21535,0.25274,9.6485,-0.0002,-0.0029,-0.0066
0.21356,0.26351,9.6341,-0.0011,-0.0041,-0.0053
0.20459,0.23599,9.6541,0.0004,-0.0053,-0.0023
0.2013,0.25902,9.6515,-0.0029,-0.0038,-0.0041
0.22672,0.26231,9.6392,0.001,-0.0029,-0.0058
0.22193,0.23539,9.6359,-0.0023,-0.0024,-0.0057
0.21535,0.24975,9.6562,-0.0013,-0.0039,-0.0032
0.1986,0.25005,9.664,-0.0003,-0.0038,-0.0028
0.20877,0.24317,9.6425,0.0011,-0.0029,-0.0029
0.1995,0.24018,9.6667,-0.0019,-0.0029,-0.0037
0.22343,0.24796,9.6129,-0.0006,-0.0019,-0.005
0.22373,0.25095,9.6595,-0.0023,-0.0029,-0.0036
0.22911,0.25872,9.6347,-0.0013,-0.0016,-0.0024
0.22074,0.25244,9.6718,-0.0005,-0.0043,-0.0013
0.21476,0.2333,9.6245,0.0004,-0.0025,-0.0029
0.21117,0.25513,9.647,0,-0.003,-0.0051
0.22223,0.26201,9.6392,0.0008,-0.006,-0.0039
0.20847,0.25902,9.658,-0.0007,-0.0024,-0.0042
0.20638,0.25663,9.6341,-0.0013,-0.0048,-0.0049
0.2324,0.26261,9.6467,-0.0016,-0.0029,-0.0048
0.20907,0.25872,9.6437,0.001,-0.0032,-0.0056
0.20638,0.27159,9.6042,-0.0003,-0.0033,-0.0031
0.20638,0.26351,9.6197,0.0005,-0.0049,-0.0041
0.21326,0.25573,9.6284,-0.0015,-0.003,-0.0049
0.22552,0.25484,9.62,-0.0012,-0.0032,-0.0046
0.23809,0.28056,9.6042,-0.0012,-0.0065,-0.0063
0.21236,0.25214,9.6529,0.0003,-0.0058,-0.004
0.21954,0.26142,9.6185,-0.0036,-0.0036,-0.0022
0.20429,0.24407,9.6302,-0.0016,-0.0037,-0.0067
0.22193,0.26381,9.6314,-0.0002,-0.0038,-0.0038
0.22522,0.23629,9.6586,-0.0013,-0.0051,-0.0044
0.19382,0.26291,9.6338,0.0004,-0.0023,-0.0058
0.21505,0.24706,9.647,-0.0002,-0.001,-0.0054
0.21655,0.24706,9.6317,-0,-0.0023,-0.0029
0.21894,0.24497,9.6305,-0.0012,-0.0051,-0.004
0.21296,0.26231,9.6293,-0.0008,-0.004,-0.0041
0.22193,0.25424,9.641,0.0002,-0.0045,-0.005
0.22822,0.22911,9.6395,0.0002,-0.0025,-0.0043
0.21505,0.26351,9.6326,-0.0006,-0.0037,-0.0054
0.20997,0.24766,9.6422,-0.0005,-0.0036,-0.0051
0.21236,0.25364,9.6359,-0.0014,-0.0027,-0.0057
0.21027,0.25842,9.6434,-0.0025,-0.0031,-0.0055
0.21176,0.24018,9.6655,-0.0008,-0.0034,-0.005
0.21416,0.26022,9.6434,-0.0012,-0.005,-0.0036
0.20578,0.27398,9.6461,0.001,-0.0046,-0.0053
0.20728,0.25304,9.6356,0.0013,-0.0057,-0.0039
0.22373,0.26082,9.6293,-0.0002,-0.0045,-0.0047
0.21087,0.24736,9.6544,-0.0015,-0.0047,-0.0032
0.23151,0.26022,9.6464,-0.0015,0.0063,-0.0063
0.21715,0.24197,9.6574,-0.0011,-0.0023,-0.0055
0.19531,0.24945,9.6455,-0.0021,-0.0054,-0.004
0.19113,0.26291,9.644,-0.0026,-0.0052,-0.005
0.22911,0.25693,9.635,0.0011,-0.0026,-0.005
0.21326,0.24646,9.6359,-0.0009,-0.0047,-0.004
0.22851,0.27936,9.6595,-0.0008,-0.0058,-0.0066
0.21655,0.25244,9.6497,-0.0015,-0.005,-0.0039
0.21864,0.24407,9.6153,0.0008,-0.005,-0.004
0.19322,0.25932,9.6562,-0.0009,-0.0035,-0.0067
0.20818,0.2333,9.6437,-0.0004,-0.0062,-0.0044
0.19083,0.27159,9.6275,-0.0001,-0.0027,-0.0047
0.23091,0.24467,9.6661,-0.0004,-0.0046,-0.0057
0.20279,0.29761,9.6221,-0.0007,-0.0019,-0.0073
0.21924,0.20937,9.6625,-0.0005,-0.0021,-0.0047
0.23539,0.25244,9.6302,-0.0005,-0.0033,-0.0054
0.20219,0.2653,9.6341,-0.0003,-0.0048,-0.006
0.21655,0.24885,9.6392,-0.0022,-0.005,-0.0054
0.18664,0.2659,9.6526,-0.0002,-0.0042,-0.006
0.21476,0.24885,9.6341,0.0025,-0.0041,-0.0038
0.23121,0.26919,9.6598,0.0014,-0.002,-0.0044
0.23061,0.25513,9.6431,-0.0003,-0.0047,-0.0041
0.21206,0.24915,9.6425,0.0006,-0.0037,-0.0043
0.21117,0.26321,9.6509,-0.0004,-0.0032,-0.0046
0.21954,0.25693,9.629,-0.0012,-0.0022,-0.0033
0.233,0.27069,9.6532,-0.0028,-0.003,-0.0049
0.1995,0.25663,9.6601,0.001,-0.0044,-0.0018
0.21386,0.28146,9.6174,0.0013,-0.0027,-0.0029
0.21296,0.24706,9.6263,-0.0004,-0.0025,-0.0039
0.20847,0.26291,9.6392,-0.0001,-0.0051,-0.0043
0.20369,0.26082,9.6347,0,-0.0029,-0.0047
0.2016,0.23958,9.6556,-0.0021,-0.0034,-0.005
0.22582,0.24796,9.6419,-0.0001,-0.0049,-0.0033
0.22911,0.27398,9.6449,0.0002,-0.0043,-0.0048
0.22283,0.25783,9.6482,0.0004,-0.0042,-0.0037
0.21984,0.2674,9.6263,-0.0003,-0.0058,-0.0045
0.21147,0.23719,9.6248,0.0001,-0.0044,-0.0041
0.20758,0.2662,9.6437,-0.0002,-0.0039,-0.005
0.2348,0.25573,9.6404,-0.0011,-0.0036,-0.0026
0.22104,0.27308,9.6317,-0,-0.004,-0.0018
0.22612,0.27368,9.6553,0.0013,-0.004,-0.0046
0.19621,0.26231,9.652,-0.0017,-0.0048,-0.0054
0.19531,0.27218,9.6506,0.0006,-0.0028,-0.0059
0.20907,0.25184,9.6443,-0.0001,-0.0038,-0.0057
0.21236,0.27218,9.644,-0.0019,-0.0047,-0.0032
0.23958,0.2668,9.6245,-0.0008,-0.0022,-0.0044
0.21057,0.24586,9.6574,-0.0016,-0.0057,-0.005
0.2004,0.24526,9.6655,0.0017,-0.0044,-0.0057
0.19531,0.25603,9.6452,0.001,-0.0033,-0.005
0.21027,0.25035,9.6526,0.001,-0.0037,-0.0062
0.22343,0.26261,9.6182,0.0008,-0.0037,-0.0035
0.24197,0.24885,9.6592,-0.0019,-0.0042,-0.0053
0.22074,0.26321,9.6296,0.0009,-0.0045,-0.0035
0.21864,0.26022,9.6467,-0.0003,-0.0031,-0.0042
0.21476,0.2653,9.6449,0.0001,-0.0048,-0.0059
0.20698,0.25663,9.6562,0.0002,-0.005,-0.0028
0.23569,0.27069,9.6296,-0.0017,-0.0029,-0.0042
0.2013,0.24616,9.6598,-0.0005,-0.0022,-0.0057
0.21595,0.25304,9.6413,-0.0003,-0.0037,-0.0063
0.2318,0.26142,9.6643,0.0008,-0.0039,-0.0033
0.22582,0.25214,9.6353,0.0011,-0.0033,-0.0031
0.20429,0.27398,9.6371,0.0024,-0.0045,-0.0047
0.21416,0.24347,9.6568,-0.0013,-0.0046,-0.0044
0.21745,0.25513,9.6404,-0.0004,-0.0048,-0.0045
0.19502,0.26859,9.6509,-0.0001,-0.004,-0.0056
0.22223,0.25992,9.6338,0.0021,-0.0052,-0.0027
0.20937,0.268,9.6344,-0.0007,-0.0032,-0.0036
0.20578,0.24407,9.62,-0.0004,-0.0026,-0.0073
0.21027,0.26231,9.6413,-0.0006,-0.0055,-0.0031
0.19143,0.25633,9.6526,-0.0011,-0.0018,-0.0047
0.1995,0.27129,9.6503,-0.0008,-0.0036,-0.0045
0.20309,0.25992,9.6529,-0,-0.0054,-0.004
0.22971,0.25902,9.67,0.0004,-0.0034,-0.0051
0.21386,0.26291,9.6272,0.0004,-0.003,-0.0055
0.20638,0.24317,9.638,0.0023,-0.0042,-0.0054
0.20548,0.25992,9.6473,0.0002,-0.0067,-0.0039
0.21655,0.24706,9.6473,0,-0.0027,-0.0042
0.21027,0.28235,9.6165,-0.0003,-0.004,-0.0054
0.22373,0.25035,9.6323,-0.0008,-0.0041,-0.0042
0.23898,0.24437,9.6449,-0.0012,-0.0028,-0.0046
0.2345,0.24736,9.6317,0.001,-0.004,-0.006
0.19651,0.24945,9.6547,-0.001,-0.0036,-0.0046
0.2007,0.25484,9.6293,0.0019,-0.0049,-0.0046
0.20877,0.27099,9.6305,-0.0003,-0.0048,-0.0054
0.19561,0.24407,9.6314,-0.0007,-0.005,-0.0076
0.23031,0.23779,9.6404,-0.0013,-0.0029,-0.0045
0.21535,0.26859,9.6517,-0,-0.0028,-0.0052
0.23091,0.26112,9.6305,-0.0008,-0.0043,-0.0032
0.23001,0.26052,9.6491,0.0007,-0.0031,-0.0023
0.18993,0.25992,9.6479,0.0007,-0.0024,-0.0049
0.22522,0.26052,9.6422,0.0005,-0.0018,-0.003
0.21356,0.26471,9.6437,0.0002,-0.0038,-0.0057
0.21326,0.25962,9.6362,-0.0025,-0.0053,-0.004
0.21057,0.268,9.6526,0.0005,-0.0062,-0.0033
0.18275,0.25274,9.6685,-0.0011,-0.003,-0.0045
0.23001,0.25992,9.6347,0.0003,-0.0061,-0.0028
0.21625,0.25543,9.6553,-0.0005,-0.002,-0.003
0.20518,0.25663,9.6371,-0.0014,-0.0035,-0.0049
0.21117,0.25155,9.6102,-0.0019,-0.0023,-0.004
0.20638,0.23091,9.641,-0.002,-0.0033,-0.0043
0.22582,0.25663,9.6574,0.0003,-0.0052,-0.004
0.21206,0.25364,9.6138,-0.0015,-0.0028,-0.0054
0.19651,0.24467,9.6691,-0.0005,-0.0002,-0.0052
0.22104,0.26501,9.6541,-0.0003,-0.0057,-0.0037
0.19083,0.26171,9.6332,-0.0002,-0.0023,-0.006
0.22134,0.25872,9.6613,-0.0015,-0.0043,-0.004
0.20279,0.27338,9.6344,0.0008,-0.004,-0.0037
0.22074,0.26859,9.6326,-0.0013,-0.0037,-0.0037
0.1986,0.25125,9.6446,-0.001,-0.0032,-0.0013
0.20489,0.26949,9.6721,0.0005,-0.0038,-0.002
0.201,0.25035,9.6694,-0.0004,-0.0043,-0.0017
0.20818,0.25334,9.6535,0.0009,-0.0048,-0.0039
0.18485,0.2659,9.6464,-0.0021,-0.005,-0.004
0.21775,0.26441,9.644,0.0002,-0.0042,-0.0027
0.20578,0.26082,9.6538,-0.0008,-0.0047,-0.0051
0.20758,0.2683,9.6503,-0.0005,-0.0037,-0.0045
0.21057,0.25364,9.6443,-0.0011,-0.0035,-0.004
0.22313,0.24975,9.6347,-0.0003,-0.0022,-0.0026
0.20907,0.27308,9.6359,-0.0017,-0.0029,-0.0034
0.22941,0.26381,9.6631,-0.0009,-0.0046,-0.0045
0.20369,0.28056,9.6224,-0.0018,-0.0031,-0.0065
0.22044,0.25513,9.6416,-0.001,-0.0032,-0.0054
0.22104,0.25454,9.6254,0.0008,-0.0044,-0.0052
0.21655,0.25842,9.6434,-0.0005,-0.0043,-0.0063
0.20489,0.25184,9.6553,-0.0007,-0.0046,-0.0033
0.20788,0.25693,9.641,-0.0016,-0.0028,-0.0033
0.21266,0.25693,9.6332,-0.0011,-0.0058,-0.0044
0.21386,0.25543,9.629,0.0005,-0.0018,-0.0046
0.22971,0.25962,9.6278,0.0002,-0.004,-0.0074
0.21835,0.25304,9.6503,-0.0024,-0.0031,-0.0018
0.19831,0.25783,9.6389,-0.0021,-0.0038,-0.0026
0.2013,0.26082,9.6488,-0.0023,-0.0018,-0.0081
0.21984,0.26919,9.6443,-0.0006,-0.0039,-0.0025
0.21326,0.26501,9.6353,-0.0028,-0.0053,-0.0049
0.21266,0.26441,9.6658,-0.0007,-0.0028,-0.0033
0.20668,0.2662,9.6437,-0.0005,-0.0033,-0.0036
0.20758,0.27278,9.647,0.0017,-0.0026,-0.0053
0.21356,0.24855,9.65,0.0003,-0.0029,-0.0046
0.22552,0.26949,9.632,-0.0013,-0.0044,-0.0052
0.22762,0.25783,9.6335,-0.0015,-0.0043,-0.0053
0.22343,0.26889,9.6532,-0.0016,-0.0035,-0.0045
0.19352,0.28265,9.6509,0.0009,-0.0024,-0.0038
0.19741,0.25334,9.6532,0,-0.0047,-0.0055
0.22134,0.26351,9.6443,-0.0021,-0.003,-0.0029
0.20698,0.25902,9.6428,-0.0028,-0.0036,-0.0043
0.22792,0.25513,9.6515,0.0001,-0.0023,-0.0058
0.21835,0.25723,9.6407,0.0002,-0.0025,-0.0045
0.20997,0.26441,9.6535,-0.0011,-0.0028,-0.0052
0.21147,0.24257,9.6532,-0.0008,-0.0038,-0.0024
0.21685,0.2653,9.6476,-0.0014,-0.0034,-0.0034
0.18664,0.24467,9.6538,0.0023,-0.0039,-0.0037
0.2001,0.24975,9.6272,-0.0005,-0.0025,-0.0052
0.20399,0.25753,9.6371,0.001,0.0063,-0.0024
0.22522,0.25484,9.6362,0.0015,-0.0047,-0.0035
0.22433,0.26441,9.6673,-0.001,-0.0034,-0.0047
0.22762,0.25932,9.6254,-0.0029,-0.0048,-0.0027
0.21446,0.24556,9.6221,-0.0002,-0.0037,-0.0068
0.21147,0.27039,9.6141,-0.002,-0.0021,-0.0041
0.21954,0.25125,9.6506,0.0013,-0.0034,-0.0048
0.21715,0.25872,9.6485,0.0005,-0.0027,-0.005
0.21835,0.2656,9.6452,0.0004,-0.0026,-0.0048
0.21685,0.27278,9.6568,0.0003,-0.0046,-0.0043
0.19502,0.25543,9.6425,-0.002,-0.0045,-0.0046
0.2016,0.25125,9.6365,-0.0004,-0.0023,-0.0028
0.21535,0.24556,9.6547,-0.0003,-0.0036,-0.0039
0.20937,0.27248,9.6625,-0.0006,-0.0046,-0.0033
0.20847,0.25872,9.6314,-0.0011,-0.0052,-0.0046
0.20937,0.23809,9.6562,-0.0009,-0.0022,-0.0058
0.22164,0.2333,9.6676,-0.001,-0.002,-0.0047
0.20818,0.2653,9.6359,0.0022,-0.0048,-0.0033
0.20967,0.25992,9.6604,-0.0013,-0.0039,-0.0034
0.20279,0.25394,9.6236,0.0004,-0.003,-0.0055
0.20698,0.27009,9.6233,0,-0.0023,-0.005
0.20489,0.25095,9.6562,0.0011,-0.0027,-0.0024
0.22313,0.26142,9.6434,-0.0018,-0.0036,-0.0027
0.21027,0.26261,9.6434,-0.0008,-0.0024,-0.0042
0.22762,0.26411,9.6455,-0.0014,-0.0044,-0.0025
0.21027,0.26082,9.6254,-0.0003,-0.0064,-0.0052
0.21835,0.24497,9.6135,-0.0014,-0.0027,-0.0054
0.19681,0.24796,9.6497,-0.001,-0.0055,-0.0058
0.22223,0.25543,9.6371,-0.0015,-0.0023,-0.0037
0.21745,0.27787,9.6245,0,-0.0058,-0.0042
0.20548,0.28295,9.6407,0.0018,-0.0029,-0.0053
0.21386,0.25932,9.6473,-0.0006,-0.0046,-0.004
0.21236,0.25902,9.6673,-0.0012,-0.0035,-0.0032
0.20997,0.28265,9.6565,-0.0017,-0.004,-0.0035
0.21087,0.24885,9.6473,-0.0007,-0.003,-0.0038
0.21206,0.27278,9.6341,-0.0014,-0.0057,-0.0037
0.21476,0.2345,9.6577,-0.0003,-0.0061,-0.0041
0.22104,0.25005,9.676,-0.0012,-0.0059,-0.0029
0.21176,0.25005,9.6428,-0.0034,-0.0027,-0.0046
0.2336,0.26082,9.6341,0,-0.0048,-0.0065
0.20189,0.24885,9.6377,-0.0016,-0.0026,-0.0053
0.2324,0.26231,9.6535,-0.001,-0.0055,-0.0048
0.22463,0.26351,9.6422,-0.0002,-0.0019,-0.0037
0.20877,0.25005,9.6607,0.0011,-0.0033,-0.0036
0.21296,0.2671,9.6254,-0.001,-0.0038,-0.0055
0.19412,0.24168,9.641,-0.0006,-0.0021,-0.0052
0.22343,0.2653,9.6353,0.0013,-0.0045,-0.0046
0.21087,0.25364,9.6284,0.0015,-0.0036,-0.0039
0.20758,0.26501,9.6482,-0.0019,-0.0064,-0.0061
0.22283,0.23868,9.6437,-0.0016,-0.0048,-0.004
0.22493,0.23988,9.6356,-0.0012,-0.0049,-0.0065
0.21266,0.24287,9.644,0.0001,-0.0049,-0.0042
0.21655,0.28116,9.644,-0.0023,-0.0056,-0.0026
0.21745,0.24855,9.6335,-0.0012,-0.0037,-0.0023
0.20459,0.25065,9.647,-0.0015,-0.0049,-0.0035
0.20189,0.2665,9.6739,0.0018,-0.0034,-0.0058
0.20518,0.25573,9.6224,-0.0003,-0.0029,-0.0068
0.21087,0.24108,9.6553,-0.0002,-0.0028,-0.0063
0.19831,0.25155,9.6305,0.0011,-0.0053,-0.0038
0.19741,0.25753,9.6649,0.0006,-0.0047,-0.0057
0.22522,0.25394,9.635,0.0011,-0.0048,-0.0057
0.20279,0.27936,9.6494,0.0021,-0.0063,-0.0046
0.21535,0.27159,9.6395,-0.0017,-0.0029,-0.0057
0.2007,0.27278,9.6461,-0.0017,-0.0021,-0.0024
0.233,0.25543,9.644,0.0005,-0.0029,-0.004
0.21296,0.2665,9.6619,0.0006,-0.0026,-0.0023
0.20788,0.24317,9.6562,0.0011,-0.0045,-0.0049
0.22433,0.25872,9.6467,-0.0016,-0.0023,-0.0039
0.2013,0.27308,9.6568,-0.0007,-0.0026,-0.0058
0.20788,0.27009,9.6401,0,-0.0031,-0.0037
0.19681,0.25633,9.6443,-0,-0.0037,-0.0049
0.22403,0.27188,9.6479,0.0013,-0.004,-0.0049
0.201,0.24526,9.65,-0.0018,-0.0054,-0.0042
0.21446,0.25962,9.6371,-0.0014,-0.0057,-0.0048
0.21206,0.24556,9.647,-0.0023,-0.0042,-0.0045
0.21864,0.25813,9.6413,0.0013,-0.0035,-0.0028
0.20788,0.268,9.6236,-0.0027,-0.0056,-0.004
0.21924,0.27577,9.6452,-0.0018,-0.0023,-0.0047
0.19322,0.25304,9.6278,-0.001,-0.0031,-0.0042
0.20907,0.25932,9.6395,-0.0002,-0.0034,-0.0033
0.22941,0.25842,9.6562,0.0015,-0.0023,-0.0043
0.19711,0.25753,9.6655,-0.0026,-0.0063,-0.003
0.21505,0.25932,9.6401,-0.0005,-0.0046,-0.0052
0.21655,0.25334,9.6284,0.0001,-0.0034,-0.0025
0.21894,0.25244,9.6428,0.0001,-0.0046,-0.0055
0.21745,0.25484,9.6251,-0.0013,-0.0045,-0.0068
0.20578,0.2662,9.6464,-0.0022,-0.0045,-0.0063
0.21386,0.25364,9.6374,-0.0009,-0.0042,-0.0023
0.22822,0.25484,9.6488,-0.0008,-0.0025,-0.0036
0.21176,0.25783,9.6485,-0.0021,-0.0038,-0.0031
0.22403,0.25484,9.6509,-0.0016,-0.0028,-0.0048
0.20847,0.24706,9.6365,0.0002,-0.0137,-0.0032
0.2004,0.27218,9.6419,0.0007,-0.0045,-0.0051
0.2004,0.25454,9.6224,-0.0001,-0.0044,-0.0043
0.20489,0.24497,9.6503,-0.0004,-0.0026,-0.0026
0.20997,0.24467,9.6299,0.0005,-0.004,-0.0056
0.22403,0.26979,9.6434,0.001,-0.0054,-0.0072
0.21655,0.26859,9.6446,-0.0024,-0.0032,-0.0034
0.21835,0.26321,9.6248,-0.0003,-0.0048,-0.005
0.24646,0.26171,9.6559,-0.0023,-0.0037,-0.0055
0.22164,0.23838,9.6503,0.0005,-0.0032,-0.0059
0.22223,0.26022,9.623,-0.0013,-0.0044,-0.0057
0.22074,0.25484,9.661,-0.001,-0.0056,-0.0045
0.20668,0.25753,9.6485,-0.0013,-0.0033,-0.0027
0.23031,0.24257,9.6377,0.0001,-0.0027,-0.0039
0.21087,0.25334,9.6523,-0.0005,-0.0038,-0.0049
0.21745,0.2668,9.6497,-0.0002,-0.0037,-0.0058
0.21745,0.26321,9.6401,-0.0011,-0.0039,-0.005
0.22253,0.26411,9.6526,0.0017,-0.0053,-0.0037
0.18156,0.24467,9.6302,0.0003,-0.0037,-0.0051
0.19771,0.2656,9.6407,0.0014,-0.004,-0.004
0.21954,0.26321,9.644,-0.0024,-0.0064,-0.0037
0.20758,0.25304,9.6559,-0.0027,-0.0045,-0.0036
0.24138,0.25962,9.6437,-0.0016,-0.0042,-0.0044
0.20967,0.26112,9.6562,-0.0003,-0.0044,-0.0037
0.22672,0.25334,9.6517,0.0002,-0.0054,-0.0039
0.19382,0.25992,9.655,-0.0007,-0.0029,-0.0052
0.21386,0.25573,9.6299,0.0002,-0.0037,-0.0038
0.21296,0.25633,9.6314,-0.0013,-0.0062,-0.0052
0.23121,0.24018,9.6356,-0.0024,-0.0041,-0.0065
0.19711,0.26082,9.6547,0.0005,-0.0048,-0.0035
0.22552,0.24766,9.6529,-0.0005,-0.0045,-0.003
0.21446,0.26112,9.6401,-0.0008,-0.0037,-0.0036
0.2001,0.24676,9.6197,-0.0009,-0.0033,-0.0029
0.22373,0.25214,9.6431,-0.003,-0.0028,-0.004
0.20399,0.27188,9.6275,-0.0024,-0.0066,-0.0046
0.20219,0.25125,9.644,-0.0003,-0.0033,-0.0057
0.22343,0.27787,9.6377,-0.0005,-0.0063,-0.0036
0.22463,0.23689,9.6269,-0.0013,-0.0036,-0.005
0.19382,0.25753,9.641,-0.0017,-0.0016,-0.0045
0.21805,0.25035,9.6637,-0.0005,-0.0043,-0.0037
0.20668,0.25513,9.6278,0.0002,-0.0021,-0.004
0.21924,0.23779,9.6556,0.0019,-0.0029,-0.0063
0.20578,0.24616,9.6416,-0.0002,-0.0016,-0.0034
0.21027,0.23539,9.6515,-0.0008,-0.0045,-0.0042
0.19531,0.24855,9.6476,-0.0018,-0.0033,-0.0016
0.22014,0.25035,9.655,0.0005,-0.0043,-0.0034
0.22283,0.2656,9.6562,-0.0019,-0.0033,-0.0029
0.22403,0.26052,9.6398,-0.0003,-0.004,-0.0037
0.21864,0.27338,9.6389,-0.0018,-0.0047,-0.0042
0.21356,0.2662,9.6509,-0.0009,-0.004,-0.0033
0.22283,0.2342,9.6395,-0.0011,-0.0007,-0.0046
0.20758,0.23719,9.641,0.0002,-0.0029,-0.0054
0.21864,0.25902,9.6236,-0.0031,-0.0044,-0.0056
0.20638,0.22732,9.6129,-0.0025,-0.0027,-0.0039
0.20818,0.25962,9.6392,-0.0025,-0.0053,-0.0049
0.22433,0.25603,9.609,-0.0014,-0.0052,-0.0045
0.21625,0.26022,9.6517,0.0003,-0.0055,-0.0039
0.19801,0.25663,9.6491,0.0005,-0.004,-0.0041
0.22014,0.25543,9.6592,-0.0004,-0.0023,-0.0048
0.2013,0.24227,9.6407,-0.0005,-0.0024,-0.0049
0.22373,0.24078,9.6512,-0.0018,-0.0034,-0.0047
0.20459,0.24646,9.6461,-0.0001,-0.0044,-0.0065
0.21476,0.24945,9.6404,0.0026,-0.0031,-0.0039
0.2342,0.26052,9.6326,-0,-0.004,-0.006
0.21206,0.2674,9.6482,-0.0003,-0.0029,-0.006
0.2004,0.27009,9.6326,-0.0002,-0.0032,-0.0032
0.20459,0.26022,9.6269,0.0012,-0.004,-0.004
0.22193,0.25753,9.6215,-0.0002,-0.004,-0.0023
0.2013,0.24497,9.6494,0.0005,-0.0043,-0.0042
0.20489,0.26291,9.6482,-0.0014,-0.0025,-0.0036
0.20578,0.25454,9.6401,-0.0015,-0.0034,-0.0058
0.20608,0.25095,9.6323,-0.0006,-0.0044,-0.0021
0.21416,0.25872,9.6431,0.001,-0.0042,-0.0023
0.21805,0.25155,9.6431,0.001,-0.0029,-0.0045
0.20997,0.24287,9.6592,-0.0006,-0.0031,-0.0055
0.1986,0.25842,9.6494,-0,-0.0045,-0.0052
0.20309,0.25155,9.6455,0.0004,-0.0044,-0.0033
0.22074,0.26351,9.6482,-0.0018,-0.0021,-0.0055
0.21625,0.24287,9.6485,0.0008,-0.0032,-0.0059
0.2001,0.25693,9.6374,0.0009,-0.0049,-0.0053
0.20339,0.25813,9.6284,0,-0.0043,-0.0057
0.22881,0.26231,9.644,-0.0006,-0.0041,-0.0039
0.22552,0.25633,9.638,-0.0008,-0.0031,-0.0044
0.22343,0.25035,9.6269,0.0009,-0.0047,-0.0047
0.21894,0.26471,9.6395,0,-0.0049,-0.0032
0.21236,0.27248,9.6565,-0.0011,-0.0036,-0.0043
0.22343,0.27188,9.6592,-0.0021,-0.0042,-0.0043
0.22313,0.24616,9.6514,-0.0014,-0.0063,-0.0043
0.21236,0.25513,9.6302,0.0005,-0.0035,-0.0023
0.21505,0.26171,9.6365,0.0005,-0.0039,-0.0021
0.19801,0.25992,9.6105,-0.0003,-0.0041,-0.0035
0.22134,0.24317,9.6365,-0.0026,-0.004,-0.0025
0.1995,0.26112,9.6227,0.0003,-0.0031,-0.0028
0.2318,0.26112,9.6437,-0.0001,-0.0031,-0.0037
0.2004,0.27248,9.6383,0.0022,-0.0047,-0.0057
0.23749,0.26351,9.6419,0.0002,-0.0062,-0.005
0.21505,0.25902,9.6515,0.0005,-0.0036,-0.0048
0.19053,0.26321,9.6392,0.001,-0.0039,-0.0037
0.20548,0.24497,9.6754,-0.003,-0.003,-0.0048
0.21505,0.24676,9.6559,-0.0008,-0.0055,-0.005
0.22493,0.25633,9.6428,0.0015,-0.0038,-0.0037
0.19651,0.25573,9.6413,-0.0009,-0.0035,-0.0041
0.2001,0.24796,9.658,-0.0003,-0.0049,-0.0039
0.20668,0.27906,9.626,0.001,-0.0024,-0.0039
0.1995,0.25005,9.6515,-0.0006,-0.006,-0.0048
0.22193,0.24616,9.6335,-0.001,-0.0038,-0.0015
0.20847,0.25065,9.6371,0.0007,-0.0044,-0.0043
0.19202,0.25125,9.6197,0.0014,-0.0049,-0.003
0.23121,0.25783,9.6512,0.0004,-0.0032,-0.0049
0.24646,0.25932,9.6497,-0.0033,-0.0034,-0.0036
0.22881,0.25902,9.6437,-0.0006,-0.0045,-0.0052
0.22193,0.25932,9.6565,-0.0011,-0.0018,-0.0023
0.22134,0.2665,9.6452,-0.0019,-0.0043,-0.0044
0.18425,0.25274,9.6302,-0.0012,-0.0018,-0.0045
0.22134,0.24526,9.6287,-0.0013,-0.0034,-0.005
0.21356,0.25962,9.6452,0.0018,-0.0016,-0.0025
0.21236,0.25573,9.6532,-0.0003,-0.0032,-0.0039
0.22403,0.25244,9.644,-0.0003,-0.004,-0.0033
0.21805,0.26351,9.6625,-0.0007,-0.0032,-0.0068
0.20518,0.23988,9.6479,0.0016,-0.0051,-0.004
0.23121,0.27278,9.6239,0,-0.0049,-0.0047
0.21087,0.24018,9.635,0.0013,-0.0027,-0.0056
0.22343,0.25962,9.6515,-0.0012,-0.0045,-0.004
0.201,0.25184,9.6323,-0.0006,-0.005,-0.0055
0.21745,0.26052,9.6535,-0.0042,-0.0037,-0.0046
0.21087,0.25454,9.6356,-0.0003,-0.003,-0.0023
0.22313,0.268,9.6595,-0.0003,-0.0035,-0.0038
0.2013,0.26082,9.6509,-0.0016,-0.0038,-0.0034
0.22881,0.24227,9.6311,0.0002,-0.0039,-0.0046
0.21266,0.24796,9.6529,-0.0015,-0.0033,-0.0024
0.21535,0.26291,9.632,-0.0021,-0.0042,-0.0031
0.22223,0.25902,9.6458,0,-0.0019,-0.0061
0.22014,0.23868,9.6284,0.0008,-0.0029,-0.0043
0.2016,0.25723,9.6476,-0.0006,-0.0026,-0.0025
0.22702,0.268,9.6461,-0.001,-0.0042,-0.0046
0.20518,0.27129,9.6497,-0.0011,-0.0042,-0.0011
0.20608,0.2659,9.6365,-0.0009,-0.003,-0.0057
0.21057,0.2677,9.6643,-0.0003,-0.001,-0.005
0.23749,0.29521,9.6523,0,-0.0025,-0.005
0.19531,0.25723,9.6203,-0.0002,-0.0043,-0.0025
0.22193,0.2665,9.6461,-0.0008,-0.0034,-0.0019
0.2004,0.24945,9.6637,0.0003,-0.0042,-0.004
0.24078,0.24138,9.6763,-0.0015,-0.0031,-0.0032
0.21087,0.2668,9.6203,-0.0018,-0.0057,-0.0054
0.19591,0.24855,9.6254,0.0001,-0.0064,-0.0032
0.19621,0.26381,9.638,0.0002,-0.0035,-0.005
0.22343,0.26859,9.652,0.0009,-0.0036,-0.0058
0.2321,0.24377,9.6329,-0.0001,-0.0043,-0.0042
0.21296,0.26082,9.6428,-0.0015,-0.0048,-0.0024
0.23001,0.27398,9.6739,0.0006,-0.0022,-0.0059
0.18245,0.24108,9.661,-0.0012,-0.0042,-0.0037
